stim_word,stim_color,trial_loop.thisRepN,trial_loop.thisTrialN,trial_loop.thisN,trial_loop.thisIndex,welcome_txt.started,welcome_txt.stopped,instructions_txt.started,instructions_txt.stopped,instructions_resp.keys,instructions_resp.rt,instructions_resp.started,instructions_resp.stopped,polygon.started,polygon.stopped,trial_txt.started,trial_txt.stopped,trial_resp.keys,trial_resp.rt,trial_resp.started,trial_resp.stopped,fix_dot.started,fix_dot.stopped,participant,date,expName,psychopyVersion,frameRate,
,,,,,,6.88690939405933,None,9.9002523800591,None,return,0.5139194460352883,9.9002523800591,None,,,,,,,,,,,,2020_Dec_02_1122,stroop,2020.2.9,60.006671451421326,
green,red,0,0,0,1,,,,,,,,,10.43414066999685,None,12.439621663070284,None,right,2.15449397591874,12.439621663070284,None,14.616312924074009,None,,2020_Dec_02_1122,stroop,2020.2.9,60.006671451421326,
red,red,0,1,1,11,,,,,,,,,,,15.11700395110529,None,right,0.8773504010168836,15.11700395110529,None,16.01694851904176,None,,2020_Dec_02_1122,stroop,2020.2.9,60.006671451421326,
green,red,0,2,2,3,,,,,,,,,,,16.51708821405191,None,right,0.4572936149779707,16.51708821405191,None,16.999699693056755,None,,2020_Dec_02_1122,stroop,2020.2.9,60.006671451421326,
red,green,0,3,3,19,,,,,,,,,,,17.50026110606268,None,left,0.5139876180328429,17.50026110606268,None,18.032857038080692,None,,2020_Dec_02_1122,stroop,2020.2.9,60.006671451421326,
red,green,0,4,4,17,,,,,,,,,,,18.532337169046514,None,left,0.3420383930206299,18.532337169046514,None,18.8994283110369,None,,2020_Dec_02_1122,stroop,2020.2.9,60.006671451421326,
red,red,0,5,5,13,,,,,,,,,,,19.39896480506286,None,right,0.45538422791287303,19.39896480506286,None,19.885653130011633,None,,2020_Dec_02_1122,stroop,2020.2.9,60.006671451421326,
red,green,0,6,6,18,,,,,,,,,,,20.39964186004363,None,right,0.6945198390167207,20.39964186004363,None,21.11555012210738,None,,2020_Dec_02_1122,stroop,2020.2.9,60.006671451421326,
red,red,0,7,7,14,,,,,,,,,,,21.616369198076427,None,right,0.578046687063761,21.616369198076427,None,22.216310117044486,None,,2020_Dec_02_1122,stroop,2020.2.9,60.006671451421326,
green,green,0,8,8,7,,,,,,,,,,,22.715658295084722,None,left,0.6985521609894931,22.715658295084722,None,23.43208531604614,None,,2020_Dec_02_1122,stroop,2020.2.9,60.006671451421326,
green,green,0,9,9,8,,,,,,,,,,,23.932412074063905,None,left,0.38179368199780583,23.932412074063905,None,24.332115020020865,None,,2020_Dec_02_1122,stroop,2020.2.9,60.006671451421326,
green,green,0,10,10,6,,,,,,,,,,,24.832734983996488,None,left,0.3417154960334301,24.832734983996488,None,25.199179814080708,None,,2020_Dec_02_1122,stroop,2020.2.9,60.006671451421326,
green,red,0,11,11,2,,,,,,,,,,,25.69913208403159,None,left,0.5152363840024918,25.69913208403159,None,26.232596068060957,None,,2020_Dec_02_1122,stroop,2020.2.9,60.006671451421326,
red,green,0,12,12,15,,,,,,,,,,,26.732296091038734,None,right,0.5820411710301414,26.732296091038734,None,27.331993633066304,None,,2020_Dec_02_1122,stroop,2020.2.9,60.006671451421326,
red,red,0,13,13,10,,,,,,,,,,,27.832956928992644,None,left,0.34155128500424325,27.832956928992644,None,28.197969534085132,None,,2020_Dec_02_1122,stroop,2020.2.9,60.006671451421326,
green,red,0,14,14,0,,,,,,,,,,,28.698567254003137,None,right,0.2758101529907435,28.698567254003137,None,28.99797067104373,None,,2020_Dec_02_1122,stroop,2020.2.9,60.006671451421326,
green,red,0,15,15,4,,,,,,,,,,,29.498712602071464,None,right,0.3755874229827896,29.498712602071464,None,29.898198316106573,None,,2020_Dec_02_1122,stroop,2020.2.9,60.006671451421326,
green,green,0,16,16,5,,,,,,,,,,,30.398628138005733,None,right,0.17590959195513278,30.398628138005733,None,30.59796216606628,None,,2020_Dec_02_1122,stroop,2020.2.9,60.006671451421326,
red,red,0,17,17,12,,,,,,,,,,,31.09841406508349,None,right,0.15611303295008838,31.09841406508349,None,31.28183751704637,None,,2020_Dec_02_1122,stroop,2020.2.9,60.006671451421326,
red,green,0,18,18,16,,,,,,,,,,,31.78193253709469,None,left,0.25244748895056546,31.78193253709469,None,32.065225178026594,None,,2020_Dec_02_1122,stroop,2020.2.9,60.006671451421326,
green,green,0,19,19,9,,,,,,,,,,,32.56530931405723,None,left,0.44899562699720263,32.56530931405723,None,33.04737329808995,None,,2020_Dec_02_1122,stroop,2020.2.9,60.006671451421326,
green,green,1,0,20,9,,,,,,,,,,,33.54792666004505,None,left,0.40660520701203495,33.54792666004505,None,33.98133122501895,None,,2020_Dec_02_1122,stroop,2020.2.9,60.006671451421326,
red,red,1,1,21,14,,,,,,,,,,,34.48145265807398,None,left,0.07315044989809394,34.48145265807398,None,34.581023229053244,None,,2020_Dec_02_1122,stroop,2020.2.9,60.006671451421326,
red,red,1,2,22,11,,,,,,,,,,,35.081359179108404,None,right,0.1330795130925253,35.081359179108404,None,35.23146404104773,None,,2020_Dec_02_1122,stroop,2020.2.9,60.006671451421326,
red,red,1,3,23,13,,,,,,,,,,,35.731399472104385,None,left,0.08305091189686209,35.731399472104385,None,35.83145795902237,None,,2020_Dec_02_1122,stroop,2020.2.9,60.006671451421326,
red,green,1,4,24,15,,,,,,,,,,,36.33093038504012,None,right,0.023654174990952015,36.33093038504012,None,36.38111493806355,None,,2020_Dec_02_1122,stroop,2020.2.9,60.006671451421326,
red,green,1,5,25,18,,,,,,,,,,,36.88147070002742,None,left,0.032995116082020104,36.88147070002742,None,36.93153501302004,None,,2020_Dec_02_1122,stroop,2020.2.9,60.006671451421326,
red,red,1,6,26,12,,,,,,,,,,,37.43143830599729,None,right,0.023067233967594802,37.43143830599729,None,37.481398354051635,None,,2020_Dec_02_1122,stroop,2020.2.9,60.006671451421326,
red,red,1,7,27,10,,,,,,,,,,,37.980885296012275,None,left,0.03355362801812589,37.980885296012275,None,38.0473177540116,None,,2020_Dec_02_1122,stroop,2020.2.9,60.006671451421326,
green,red,1,8,28,4,,,,,,,,,,,38.54736400907859,None,right,0.06700426002498716,38.54736400907859,None,38.646739048999734,None,,2020_Dec_02_1122,stroop,2020.2.9,60.006671451421326,
green,green,1,9,29,8,,,,,,,,,,,39.14743336010724,None,left,0.046987931011244655,39.14743336010724,None,39.21397672302555,None,,2020_Dec_02_1122,stroop,2020.2.9,60.006671451421326,
green,green,1,10,30,5,,,,,,,,,,,39.71397486503702,None,right,0.08049329603090882,39.71397486503702,None,39.81413365807384,None,,2020_Dec_02_1122,stroop,2020.2.9,60.006671451421326,
green,green,1,11,31,7,,,,,,,,,,,40.31339069909882,None,left,0.04108845500741154,40.31339069909882,None,40.38090764405206,None,,2020_Dec_02_1122,stroop,2020.2.9,60.006671451421326,
red,green,1,12,32,19,,,,,,,,,,,40.88088370510377,None,right,0.053696810035035014,40.88088370510377,None,40.9639158740174,None,,2020_Dec_02_1122,stroop,2020.2.9,60.006671451421326,
red,green,1,13,33,17,,,,,,,,,,,41.464025252033025,None,left,0.03061631601303816,41.464025252033025,None,41.51414706604555,None,,2020_Dec_02_1122,stroop,2020.2.9,60.006671451421326,
green,green,1,14,34,6,,,,,,,,,,,42.01385669200681,None,right,0.10061214794404805,42.01385669200681,None,42.14711247605737,None,,2020_Dec_02_1122,stroop,2020.2.9,60.006671451421326,
green,red,1,15,35,1,,,,,,,,,,,42.646808856050484,None,left,0.08777432597707957,42.646808856050484,None,42.764054659055546,None,,2020_Dec_02_1122,stroop,2020.2.9,60.006671451421326,
red,green,1,16,36,16,,,,,,,,,,,43.26342519803438,None,right,0.05097024899441749,43.26342519803438,None,43.34839142905548,None,,2020_Dec_02_1122,stroop,2020.2.9,60.006671451421326,
green,red,1,17,37,2,,,,,,,,,,,43.86345742503181,None,left,0.011278819991275668,43.86345742503181,None,43.89684921002481,None,,2020_Dec_02_1122,stroop,2020.2.9,60.006671451421326,
green,red,1,18,38,0,,,,,,,,,,,44.39685869705863,None,right,0.05785789096262306,44.39685869705863,None,44.48031230899505,None,,2020_Dec_02_1122,stroop,2020.2.9,60.006671451421326,
green,red,1,19,39,3,,,,,,,,,,,44.97977036307566,None,left,0.05469206999987364,44.97977036307566,None,45.06288283504546,None,,2020_Dec_02_1122,stroop,2020.2.9,60.006671451421326,
red,green,2,0,40,17,,,,,,,,,,,45.56363102002069,None,right,0.05091145494952798,45.56363102002069,None,45.646923277992755,None,,2020_Dec_02_1122,stroop,2020.2.9,60.006671451421326,
red,green,2,1,41,19,,,,,,,,,,,46.14691941800993,None,left,0.04771160602103919,46.14691941800993,None,46.21363077999558,None,,2020_Dec_02_1122,stroop,2020.2.9,60.006671451421326,
red,red,2,2,42,10,,,,,,,,,,,46.71287197910715,None,right,0.04182896704878658,46.71287197910715,None,46.78029783209786,None,,2020_Dec_02_1122,stroop,2020.2.9,60.006671451421326,
green,green,2,3,43,7,,,,,,,,,,,47.280079601099715,None,left,0.05444218392949551,47.280079601099715,None,47.365630827029236,None,,2020_Dec_02_1122,stroop,2020.2.9,60.006671451421326,
green,red,2,4,44,1,,,,,,,,,,,47.880259651108645,None,right,0.09445129102095962,47.880259651108645,None,47.99619131104555,None,,2020_Dec_02_1122,stroop,2020.2.9,60.006671451421326,
green,red,2,5,45,4,,,,,,,,,,,48.496259735082276,None,left,0.03841086698230356,48.496259735082276,None,48.56328407500405,None,,2020_Dec_02_1122,stroop,2020.2.9,60.006671451421326,
red,red,2,6,46,13,,,,,,,,,,,49.06251829105895,None,right,0.03202508809044957,49.06251829105895,None,49.112460057018325,None,,2020_Dec_02_1122,stroop,2020.2.9,60.006671451421326,
red,green,2,7,47,15,,,,,,,,,,,49.61311142507475,None,left,0.08151391998399049,49.61311142507475,None,49.713117378996685,None,,2020_Dec_02_1122,stroop,2020.2.9,60.006671451421326,
green,red,2,8,48,3,,,,,,,,,,,50.21315714507364,None,right,0.04164868709631264,50.21315714507364,None,50.27967711200472,None,,2020_Dec_02_1122,stroop,2020.2.9,60.006671451421326,
red,red,2,9,49,11,,,,,,,,,,,50.77949905907735,None,left,0.055218116962350905,50.77949905907735,None,50.86302897403948,None,,2020_Dec_02_1122,stroop,2020.2.9,60.006671451421326,
red,green,2,10,50,18,,,,,,,,,,,51.36557260109112,None,right,0.049067271989770234,51.36557260109112,None,51.445668734028004,None,,2020_Dec_02_1122,stroop,2020.2.9,60.006671451421326,
green,red,2,11,51,0,,,,,,,,,,,51.94641586707439,None,left,0.04821534303482622,51.94641586707439,None,52.01313947001472,None,,2020_Dec_02_1122,stroop,2020.2.9,60.006671451421326,
green,red,2,12,52,2,,,,,,,,,,,52.5131023270078,None,right,0.04169226693920791,52.5131023270078,None,52.5799789550947,None,,2020_Dec_02_1122,stroop,2020.2.9,60.006671451421326,
green,green,2,13,53,9,,,,,,,,,,,53.09514950599987,None,left,0.05961154599208385,53.09514950599987,None,53.17900575499516,None,,2020_Dec_02_1122,stroop,2020.2.9,60.006671451421326,
green,green,2,14,54,5,,,,,,,,,,,53.67900186905172,None,right,0.0758277119603008,53.67900186905172,None,53.77857158205006,None,,2020_Dec_02_1122,stroop,2020.2.9,60.006671451421326,
red,red,2,15,55,14,,,,,,,,,,,54.279085603076965,None,left,0.11558611504733562,54.279085603076965,None,54.41269203601405,None,,2020_Dec_02_1122,stroop,2020.2.9,60.006671451421326,
red,red,2,16,56,12,,,,,,,,,,,54.91246374801267,None,right,0.10223702597431839,54.91246374801267,None,55.04580495203845,None,,2020_Dec_02_1122,stroop,2020.2.9,60.006671451421326,
green,green,2,17,57,8,,,,,,,,,,,55.54597347800154,None,left,0.0887698259903118,55.54597347800154,None,55.66251237504184,None,,2020_Dec_02_1122,stroop,2020.2.9,60.006671451421326,
red,green,2,18,58,16,,,,,,,,,,,56.162465938017704,None,right,0.1121742349350825,56.162465938017704,None,56.29517671104986,None,,2020_Dec_02_1122,stroop,2020.2.9,60.006671451421326,
green,green,2,19,59,6,,,,,,,,,,,56.795804718043655,None,left,0.0989281659713015,56.795804718043655,None,56.912667158059776,None,,2020_Dec_02_1122,stroop,2020.2.9,60.006671451421326,
